# 180 angles,  1 tensor ranks for 0=projectile
@subtitle   "Simple  11Be + 197Au Coulex of 1/2- at the barrier"                                                                    
@legend ON
@legend x1 0.2
@legend y1 0.8
@g0 type LOGY
@xaxis label "Scattering angle (degrees)"
@yaxis label "Cross section (mb/sr)"
@             s0 legend        "Partition=  1 Excit=  1 near/far= 1"
#             s0 legend        "Lab energy =   42.0000"
@s0 linestyle   1
#  Theta       sigma       iT11        T20         T21         T22         Kyy for projectile
  1.0000     0.99985    
  2.0000     0.99984    
  3.0000      1.0014    
  4.0000     0.99992    
  5.0000      1.0001    
  6.0000     0.99985    
  7.0000     0.99965    
  8.0000     0.99927    
  9.0000     0.99886    
  10.000     0.99825    
  11.000     0.99749    
  12.000     0.99667    
  13.000     0.99568    
  14.000     0.99464    
  15.000     0.99345    
  16.000     0.99217    
  17.000     0.99078    
  18.000     0.98929    
  19.000     0.98770    
  20.000     0.98601    
  21.000     0.98425    
  22.000     0.98240    
  23.000     0.98048    
  24.000     0.97848    
  25.000     0.97637    
  26.000     0.97420    
  27.000     0.97198    
  28.000     0.96970    
  29.000     0.96732    
  30.000     0.96486    
  31.000     0.96241    
  32.000     0.95987    
  33.000     0.95722    
  34.000     0.95453    
  35.000     0.95186    
  36.000     0.94910    
  37.000     0.94628    
  38.000     0.94341    
  39.000     0.94044    
  40.000     0.93743    
  41.000     0.93447    
  42.000     0.93148    
  43.000     0.92846    
  44.000     0.92538    
  45.000     0.92211    
  46.000     0.91880    
  47.000     0.91550    
  48.000     0.91216    
  49.000     0.90898    
  50.000     0.90585    
  51.000     0.90270    
  52.000     0.89947    
  53.000     0.89610    
  54.000     0.89249    
  55.000     0.88876    
  56.000     0.88496    
  57.000     0.88124    
  58.000     0.87773    
  59.000     0.87446    
  60.000     0.87150    
  61.000     0.86876    
  62.000     0.86607    
  63.000     0.86345    
  64.000     0.86048    
  65.000     0.85721    
  66.000     0.85352    
  67.000     0.84934    
  68.000     0.84484    
  69.000     0.84007    
  70.000     0.83527    
  71.000     0.83067    
  72.000     0.82653    
  73.000     0.82293    
  74.000     0.82025    
  75.000     0.81843    
  76.000     0.81760    
  77.000     0.81771    
  78.000     0.81860    
  79.000     0.82011    
  80.000     0.82203    
  81.000     0.82403    
  82.000     0.82588    
  83.000     0.82720    
  84.000     0.82771    
  85.000     0.82712    
  86.000     0.82520    
  87.000     0.82169    
  88.000     0.81659    
  89.000     0.80950    
  90.000     0.80058    
  91.000     0.78974    
  92.000     0.77703    
  93.000     0.76238    
  94.000     0.74621    
  95.000     0.72830    
  96.000     0.70898    
  97.000     0.68843    
  98.000     0.66672    
  99.000     0.64415    
  100.00     0.62089    
  101.00     0.59710    
  102.00     0.57293    
  103.00     0.54860    
  104.00     0.52433    
  105.00     0.50006    
  106.00     0.47611    
  107.00     0.45257    
  108.00     0.42954    
  109.00     0.40692    
  110.00     0.38511    
  111.00     0.36397    
  112.00     0.34353    
  113.00     0.32388    
  114.00     0.30511    
  115.00     0.28714    
  116.00     0.26996    
  117.00     0.25363    
  118.00     0.23824    
  119.00     0.22356    
  120.00     0.20966    
  121.00     0.19660    
  122.00     0.18430    
  123.00     0.17270    
  124.00     0.16180    
  125.00     0.15160    
  126.00     0.14201    
  127.00     0.13307    
  128.00     0.12466    
  129.00     0.11685    
  130.00     0.10952    
  131.00     0.10269    
  132.00     0.96316E-01
  133.00     0.90402E-01
  134.00     0.84872E-01
  135.00     0.79708E-01
  136.00     0.74945E-01
  137.00     0.70487E-01
  138.00     0.66334E-01
  139.00     0.62468E-01
  140.00     0.58902E-01
  141.00     0.55566E-01
  142.00     0.52493E-01
  143.00     0.49627E-01
  144.00     0.46914E-01
  145.00     0.44455E-01
  146.00     0.42129E-01
  147.00     0.40020E-01
  148.00     0.38026E-01
  149.00     0.36175E-01
  150.00     0.34452E-01
  151.00     0.32867E-01
  152.00     0.31396E-01
  153.00     0.29988E-01
  154.00     0.28752E-01
  155.00     0.27552E-01
  156.00     0.26464E-01
  157.00     0.25454E-01
  158.00     0.24528E-01
  159.00     0.23645E-01
  160.00     0.22832E-01
  161.00     0.22097E-01
  162.00     0.21392E-01
  163.00     0.20779E-01
  164.00     0.20205E-01
  165.00     0.19667E-01
  166.00     0.19180E-01
  167.00     0.18728E-01
  168.00     0.18342E-01
  169.00     0.17973E-01
  170.00     0.17626E-01
  171.00     0.17372E-01
  172.00     0.17102E-01
  173.00     0.16879E-01
  174.00     0.16677E-01
  175.00     0.16541E-01
  176.00     0.16389E-01
  177.00     0.16278E-01
  178.00     0.16215E-01
  179.00     0.16276E-01
  179.99     0.15996E-01
 &
@             s1 legend        "Partition=  1 Excit=  2 near/far= 1"
#             s0 legend        "Lab energy =   42.0000"
@s1 linestyle   2
#  Theta       sigma       iT11        T20         T21         T22         Kyy for projectile
  1.0000      83.599    
  2.0000      547.52    
  3.0000      703.18    
  4.0000      505.48    
  5.0000      1257.3    
  6.0000      1895.2    
  7.0000      2291.4    
  8.0000      2475.3    
  9.0000      2515.8    
  10.000      2467.6    
  11.000      2365.8    
  12.000      2235.0    
  13.000      2094.4    
  14.000      1951.7    
  15.000      1812.9    
  16.000      1681.4    
  17.000      1558.1    
  18.000      1444.0    
  19.000      1338.7    
  20.000      1241.8    
  21.000      1153.4    
  22.000      1073.3    
  23.000      1000.0    
  24.000      933.43    
  25.000      872.20    
  26.000      816.09    
  27.000      764.59    
  28.000      717.80    
  29.000      675.00    
  30.000      635.13    
  31.000      598.44    
  32.000      565.00    
  33.000      534.04    
  34.000      505.12    
  35.000      478.55    
  36.000      454.10    
  37.000      431.17    
  38.000      409.74    
  39.000      390.07    
  40.000      371.61    
  41.000      354.23    
  42.000      338.29    
  43.000      323.23    
  44.000      309.05    
  45.000      295.92    
  46.000      283.44    
  47.000      271.69    
  48.000      260.75    
  49.000      250.39    
  50.000      240.66    
  51.000      231.59    
  52.000      222.88    
  53.000      214.72    
  54.000      206.95    
  55.000      199.53    
  56.000      192.53    
  57.000      185.86    
  58.000      179.56    
  59.000      173.66    
  60.000      168.05    
  61.000      162.80    
  62.000      157.82    
  63.000      153.08    
  64.000      148.57    
  65.000      144.19    
  66.000      139.98    
  67.000      135.90    
  68.000      131.94    
  69.000      128.12    
  70.000      124.43    
  71.000      120.94    
  72.000      117.59    
  73.000      114.48    
  74.000      111.58    
  75.000      108.88    
  76.000      106.42    
  77.000      104.15    
  78.000      102.07    
  79.000      100.15    
  80.000      98.358    
  81.000      96.671    
  82.000      95.028    
  83.000      93.443    
  84.000      91.830    
  85.000      90.202    
  86.000      88.503    
  87.000      86.745    
  88.000      84.886    
  89.000      82.935    
  90.000      80.874    
  91.000      78.715    
  92.000      76.454    
  93.000      74.104    
  94.000      71.655    
  95.000      69.161    
  96.000      66.592    
  97.000      63.988    
  98.000      61.346    
  99.000      58.710    
  100.00      56.060    
  101.00      53.438    
  102.00      50.832    
  103.00      48.283    
  104.00      45.773    
  105.00      43.332    
  106.00      40.954    
  107.00      38.657    
  108.00      36.438    
  109.00      34.300    
  110.00      32.260    
  111.00      30.304    
  112.00      28.437    
  113.00      26.668    
  114.00      24.988    
  115.00      23.391    
  116.00      21.889    
  117.00      20.473    
  118.00      19.134    
  119.00      17.881    
  120.00      16.705    
  121.00      15.599    
  122.00      14.568    
  123.00      13.604    
  124.00      12.698    
  125.00      11.862    
  126.00      11.073    
  127.00      10.345    
  128.00      9.6654    
  129.00      9.0327    
  130.00      8.4472    
  131.00      7.8976    
  132.00      7.3939    
  133.00      6.9169    
  134.00      6.4866    
  135.00      6.0736    
  136.00      5.7065    
  137.00      5.3574    
  138.00      5.0251    
  139.00      4.7283    
  140.00      4.4533    
  141.00      4.1951    
  142.00      3.9556    
  143.00      3.7329    
  144.00      3.5284    
  145.00      3.3367    
  146.00      3.1618    
  147.00      2.9963    
  148.00      2.8463    
  149.00      2.7049    
  150.00      2.5750    
  151.00      2.4537    
  152.00      2.3400    
  153.00      2.2374    
  154.00      2.1411    
  155.00      2.0532    
  156.00      1.9699    
  157.00      1.8906    
  158.00      1.8207    
  159.00      1.7583    
  160.00      1.6984    
  161.00      1.6358    
  162.00      1.5898    
  163.00      1.5434    
  164.00      1.4951    
  165.00      1.4612    
  166.00      1.4179    
  167.00      1.3920    
  168.00      1.3550    
  169.00      1.3335    
  170.00      1.3078    
  171.00      1.2819    
  172.00      1.2673    
  173.00      1.2510    
  174.00      1.2339    
  175.00      1.2194    
  176.00      1.2137    
  177.00      1.2053    
  178.00      1.2046    
  179.00      1.1963    
  180.00      1.2136    
 &
